[
  {
    "rt": 5405,
    "stimulus": "<h2><b>Consent Form</b></h2> <div style=\"text-align:left;background-color:lightblue; padding:20px; max-width:900px;\"><p><b>Description:</b> Welcome! You are invited to participate in a research study in cognitive psychology. You will be asked to perform tasks on a computer which may include: looking at images, choose between options. You may be asked a number of different questions about making judgments and intepreting people's actions. All information collected will remain confidential. </p><strong>Risks, Benefits and Data Confidentiality</strong>\n\n<br>\n\nThere are no known risks in participating in this study, and no health or cognitive benefits. Whilst your data will be provided anonymously, at the point of data collection, your responses in the survey could, theoretically, be linked back to you via your Prolific ID, or your IP address. \n\n<br>\n\nThe former is collected to enable your payment, the latter to ensure that there are no duplicate responses in the database. After we have used the data for this purpose, this information will be deleted from the data file. The data will subsequently be stored anonymously, such that your individual responses will not be traceable back to you. \n\nAll personal information will remain confidential and the data gathered will be stored anonymously and securely. It will not be possible to identify you in any publications. Any anonymised research data may be shared with, and used by, others for future research.\n\n<br><br>\n\n<strong>Participation or Withdrawal</strong>\n\n<br>\n\nYour participation in the study is voluntary. You may decline to answer any question and have the right to withdraw from participation at any time. Withdrawal will not affect your relationship with University College London in any way. \n\nSimply close your browser if you wish to withdraw.\n\n<br><br>\n\n<strong>**The study has been processed by the Research Ethics Committee at University College London and the study number is 0497.**</strong></div><p> Do you agree with the terms of the experiment as explained above? </p>",
    "response": 0,
    "trial_type": "html-button-response",
    "trial_index": 0,
    "plugin_version": "2.1.0",
    "time_elapsed": 5414
  },
  {
    "view_history": [
      {
        "page_index": 0,
        "viewing_time": 48478
      }
    ],
    "rt": 48478,
    "trial_type": "instructions",
    "trial_index": 1,
    "plugin_version": "2.1.0",
    "time_elapsed": 53893
  },
  {
    "trial_type": "html-keyboard-response",
    "condition": "non-feature",
    "randomized_images": {
      "A": "non-feature/imageE.png",
      "B": "non-feature/imageB.png",
      "C": "non-feature/imageA.png",
      "D": "non-feature/imageF.png",
      "E": "non-feature/imageC.png",
      "F": "non-feature/imageD.png"
    },
    "rt": null,
    "stimulus": "",
    "response": null,
    "trial_index": 2,
    "plugin_version": "2.1.0",
    "time_elapsed": 53896
  },
  {
    "rt": 14521,
    "response": {
      "prolific_ID": "5588b04ffdf99b7a91e75ddb"
    },
    "trial_type": "survey-text",
    "trial_index": 3,
    "plugin_version": "2.1.0",
    "time_elapsed": 68422
  },
  {
    "rt": 5416,
    "stimulus": "<h3>Training Block</h3>\n                   <p>Press any key to start this block.</p>",
    "response": " ",
    "trial_type": "html-keyboard-response",
    "trial_index": 4,
    "plugin_version": "2.1.0",
    "time_elapsed": 73839
  },
  {
    "phase": "training",
    "block": 1,
    "left_image": "B",
    "actual_left_image": "imageB.png",
    "right_image": "A",
    "actual_right_image": "imageE.png",
    "pair": "B-A",
    "condition": "non-feature",
    "rt": 3924,
    "stimulus": "\n                <div class=\"phase-indicator\">TRAINING PHASE</div>\n                <div class=\"progress-info\">Choose an image: F = Left, J = Right</div>\n                <div class=\"image-pair-container\">\n                    <div class=\"image-choice\">\n                        <img src=\"non-feature/imageB.png\" alt=\"Image B\">\n                        <div class=\"key-label\">F</div>\n                    </div>\n                    <div class=\"image-choice\">\n                        <img src=\"non-feature/imageE.png\" alt=\"Image A\">\n                        <div class=\"key-label\">J</div>\n                    </div>\n                </div>\n            ",
    "response": "f",
    "trial_type": "html-keyboard-response",
    "trial_index": 5,
    "plugin_version": "2.1.0",
    "time_elapsed": 77766,
    "chosen_image": "B",
    "unchosen_image": "A",
    "chosen_side": "left",
    "reward": false,
    "reaction_time": 3924,
    "trial_number": 0
  },
  {
    "rt": null,
    "stimulus": "<div class=\"feedback no-reward\">No reward</div>",
    "response": null,
    "trial_type": "html-keyboard-response",
    "trial_index": 6,
    "plugin_version": "2.1.0",
    "time_elapsed": 79282
  },
  {
    "phase": "training",
    "block": 1,
    "left_image": "C",
    "actual_left_image": "imageA.png",
    "right_image": "D",
    "actual_right_image": "imageF.png",
    "pair": "C-D",
    "condition": "non-feature",
    "rt": 2250,
    "stimulus": "\n                <div class=\"phase-indicator\">TRAINING PHASE</div>\n                <div class=\"progress-info\">Choose an image: F = Left, J = Right</div>\n                <div class=\"image-pair-container\">\n                    <div class=\"image-choice\">\n                        <img src=\"non-feature/imageA.png\" alt=\"Image C\">\n                        <div class=\"key-label\">F</div>\n                    </div>\n                    <div class=\"image-choice\">\n                        <img src=\"non-feature/imageF.png\" alt=\"Image D\">\n                        <div class=\"key-label\">J</div>\n                    </div>\n                </div>\n            ",
    "response": "f",
    "trial_type": "html-keyboard-response",
    "trial_index": 7,
    "plugin_version": "2.1.0",
    "time_elapsed": 81534,
    "chosen_image": "C",
    "unchosen_image": "D",
    "chosen_side": "left",
    "reward": true,
    "reaction_time": 2250,
    "trial_number": 1
  },
  {
    "rt": null,
    "stimulus": "<div class=\"feedback reward\">REWARD! +0.3p</div>",
    "response": null,
    "trial_type": "html-keyboard-response",
    "trial_index": 8,
    "plugin_version": "2.1.0",
    "time_elapsed": 83041
  },
  {
    "phase": "training",
    "block": 1,
    "left_image": "D",
    "actual_left_image": "imageF.png",
    "right_image": "C",
    "actual_right_image": "imageA.png",
    "pair": "D-C",
    "condition": "non-feature",
    "rt": 858,
    "stimulus": "\n                <div class=\"phase-indicator\">TRAINING PHASE</div>\n                <div class=\"progress-info\">Choose an image: F = Left, J = Right</div>\n                <div class=\"image-pair-container\">\n                    <div class=\"image-choice\">\n                        <img src=\"non-feature/imageF.png\" alt=\"Image D\">\n                        <div class=\"key-label\">F</div>\n                    </div>\n                    <div class=\"image-choice\">\n                        <img src=\"non-feature/imageA.png\" alt=\"Image C\">\n                        <div class=\"key-label\">J</div>\n                    </div>\n                </div>\n            ",
    "response": "j",
    "trial_type": "html-keyboard-response",
    "trial_index": 9,
    "plugin_version": "2.1.0",
    "time_elapsed": 83902,
    "chosen_image": "C",
    "unchosen_image": "D",
    "chosen_side": "right",
    "reward": true,
    "reaction_time": 858,
    "trial_number": 2
  },
  {
    "rt": null,
    "stimulus": "<div class=\"feedback reward\">REWARD! +0.3p</div>",
    "response": null,
    "trial_type": "html-keyboard-response",
    "trial_index": 10,
    "plugin_version": "2.1.0",
    "time_elapsed": 85418
  },
  {
    "phase": "training",
    "block": 1,
    "left_image": "B",
    "actual_left_image": "imageB.png",
    "right_image": "C",
    "actual_right_image": "imageA.png",
    "pair": "B-C",
    "condition": "non-feature",
    "rt": 906,
    "stimulus": "\n                <div class=\"phase-indicator\">TRAINING PHASE</div>\n                <div class=\"progress-info\">Choose an image: F = Left, J = Right</div>\n                <div class=\"image-pair-container\">\n                    <div class=\"image-choice\">\n                        <img src=\"non-feature/imageB.png\" alt=\"Image B\">\n                        <div class=\"key-label\">F</div>\n                    </div>\n                    <div class=\"image-choice\">\n                        <img src=\"non-feature/imageA.png\" alt=\"Image C\">\n                        <div class=\"key-label\">J</div>\n                    </div>\n                </div>\n            ",
    "response": "j",
    "trial_type": "html-keyboard-response",
    "trial_index": 11,
    "plugin_version": "2.1.0",
    "time_elapsed": 86326,
    "chosen_image": "C",
    "unchosen_image": "B",
    "chosen_side": "right",
    "reward": true,
    "reaction_time": 906,
    "trial_number": 3
  },
  {
    "rt": null,
    "stimulus": "<div class=\"feedback reward\">REWARD! +0.3p</div>",
    "response": null,
    "trial_type": "html-keyboard-response",
    "trial_index": 12,
    "plugin_version": "2.1.0",
    "time_elapsed": 87842
  },
  {
    "phase": "training",
    "block": 1,
    "left_image": "D",
    "actual_left_image": "imageF.png",
    "right_image": "E",
    "actual_right_image": "imageC.png",
    "pair": "D-E",
    "condition": "non-feature",
    "rt": 2041,
    "stimulus": "\n                <div class=\"phase-indicator\">TRAINING PHASE</div>\n                <div class=\"progress-info\">Choose an image: F = Left, J = Right</div>\n                <div class=\"image-pair-container\">\n                    <div class=\"image-choice\">\n                        <img src=\"non-feature/imageF.png\" alt=\"Image D\">\n                        <div class=\"key-label\">F</div>\n                    </div>\n                    <div class=\"image-choice\">\n                        <img src=\"non-feature/imageC.png\" alt=\"Image E\">\n                        <div class=\"key-label\">J</div>\n                    </div>\n                </div>\n            ",
    "response": "f",
    "trial_type": "html-keyboard-response",
    "trial_index": 13,
    "plugin_version": "2.1.0",
    "time_elapsed": 89885,
    "chosen_image": "D",
    "unchosen_image": "E",
    "chosen_side": "left",
    "reward": true,
    "reaction_time": 2041,
    "trial_number": 4
  },
  {
    "rt": null,
    "stimulus": "<div class=\"feedback reward\">REWARD! +0.3p</div>",
    "response": null,
    "trial_type": "html-keyboard-response",
    "trial_index": 14,
    "plugin_version": "2.1.0",
    "time_elapsed": 91407
  },
  {
    "phase": "training",
    "block": 1,
    "left_image": "E",
    "actual_left_image": "imageC.png",
    "right_image": "F",
    "actual_right_image": "imageD.png",
    "pair": "E-F",
    "condition": "non-feature",
    "rt": 1709,
    "stimulus": "\n                <div class=\"phase-indicator\">TRAINING PHASE</div>\n                <div class=\"progress-info\">Choose an image: F = Left, J = Right</div>\n                <div class=\"image-pair-container\">\n                    <div class=\"image-choice\">\n                        <img src=\"non-feature/imageC.png\" alt=\"Image E\">\n                        <div class=\"key-label\">F</div>\n                    </div>\n                    <div class=\"image-choice\">\n                        <img src=\"non-feature/imageD.png\" alt=\"Image F\">\n                        <div class=\"key-label\">J</div>\n                    </div>\n                </div>\n            ",
    "response": "j",
    "trial_type": "html-keyboard-response",
    "trial_index": 15,
    "plugin_version": "2.1.0",
    "time_elapsed": 93119,
    "chosen_image": "F",
    "unchosen_image": "E",
    "chosen_side": "right",
    "reward": false,
    "reaction_time": 1709,
    "trial_number": 5
  },
  {
    "rt": null,
    "stimulus": "<div class=\"feedback no-reward\">No reward</div>",
    "response": null,
    "trial_type": "html-keyboard-response",
    "trial_index": 16,
    "plugin_version": "2.1.0",
    "time_elapsed": 94635
  },
  {
    "phase": "training",
    "block": 1,
    "left_image": "F",
    "actual_left_image": "imageD.png",
    "right_image": "E",
    "actual_right_image": "imageC.png",
    "pair": "F-E",
    "condition": "non-feature",
    "rt": 1105,
    "stimulus": "\n                <div class=\"phase-indicator\">TRAINING PHASE</div>\n                <div class=\"progress-info\">Choose an image: F = Left, J = Right</div>\n                <div class=\"image-pair-container\">\n                    <div class=\"image-choice\">\n                        <img src=\"non-feature/imageD.png\" alt=\"Image F\">\n                        <div class=\"key-label\">F</div>\n                    </div>\n                    <div class=\"image-choice\">\n                        <img src=\"non-feature/imageC.png\" alt=\"Image E\">\n                        <div class=\"key-label\">J</div>\n                    </div>\n                </div>\n            ",
    "response": "j",
    "trial_type": "html-keyboard-response",
    "trial_index": 17,
    "plugin_version": "2.1.0",
    "time_elapsed": 95742,
    "chosen_image": "E",
    "unchosen_image": "F",
    "chosen_side": "right",
    "reward": true,
    "reaction_time": 1105,
    "trial_number": 6
  },
  {
    "rt": null,
    "stimulus": "<div class=\"feedback reward\">REWARD! +0.3p</div>",
    "response": null,
    "trial_type": "html-keyboard-response",
    "trial_index": 18,
    "plugin_version": "2.1.0",
    "time_elapsed": 97259
  },
  {
    "phase": "training",
    "block": 1,
    "left_image": "A",
    "actual_left_image": "imageE.png",
    "right_image": "B",
    "actual_right_image": "imageB.png",
    "pair": "A-B",
    "condition": "non-feature",
    "rt": 1008,
    "stimulus": "\n                <div class=\"phase-indicator\">TRAINING PHASE</div>\n                <div class=\"progress-info\">Choose an image: F = Left, J = Right</div>\n                <div class=\"image-pair-container\">\n                    <div class=\"image-choice\">\n                        <img src=\"non-feature/imageE.png\" alt=\"Image A\">\n                        <div class=\"key-label\">F</div>\n                    </div>\n                    <div class=\"image-choice\">\n                        <img src=\"non-feature/imageB.png\" alt=\"Image B\">\n                        <div class=\"key-label\">J</div>\n                    </div>\n                </div>\n            ",
    "response": "f",
    "trial_type": "html-keyboard-response",
    "trial_index": 19,
    "plugin_version": "2.1.0",
    "time_elapsed": 98270,
    "chosen_image": "A",
    "unchosen_image": "B",
    "chosen_side": "left",
    "reward": true,
    "reaction_time": 1008,
    "trial_number": 7
  },
  {
    "rt": null,
    "stimulus": "<div class=\"feedback reward\">REWARD! +0.3p</div>",
    "response": null,
    "trial_type": "html-keyboard-response",
    "trial_index": 20,
    "plugin_version": "2.1.0",
    "time_elapsed": 99783
  },
  {
    "phase": "training",
    "block": 1,
    "left_image": "C",
    "actual_left_image": "imageA.png",
    "right_image": "B",
    "actual_right_image": "imageB.png",
    "pair": "C-B",
    "condition": "non-feature",
    "rt": 1285,
    "stimulus": "\n                <div class=\"phase-indicator\">TRAINING PHASE</div>\n                <div class=\"progress-info\">Choose an image: F = Left, J = Right</div>\n                <div class=\"image-pair-container\">\n                    <div class=\"image-choice\">\n                        <img src=\"non-feature/imageA.png\" alt=\"Image C\">\n                        <div class=\"key-label\">F</div>\n                    </div>\n                    <div class=\"image-choice\">\n                        <img src=\"non-feature/imageB.png\" alt=\"Image B\">\n                        <div class=\"key-label\">J</div>\n                    </div>\n                </div>\n            ",
    "response": "f",
    "trial_type": "html-keyboard-response",
    "trial_index": 21,
    "plugin_version": "2.1.0",
    "time_elapsed": 101070,
    "chosen_image": "C",
    "unchosen_image": "B",
    "chosen_side": "left",
    "reward": true,
    "reaction_time": 1285,
    "trial_number": 8
  },
  {
    "rt": null,
    "stimulus": "<div class=\"feedback reward\">REWARD! +0.3p</div>",
    "response": null,
    "trial_type": "html-keyboard-response",
    "trial_index": 22,
    "plugin_version": "2.1.0",
    "time_elapsed": 102577
  },
  {
    "phase": "training",
    "block": 1,
    "left_image": "E",
    "actual_left_image": "imageC.png",
    "right_image": "D",
    "actual_right_image": "imageF.png",
    "pair": "E-D",
    "condition": "non-feature",
    "rt": 1091,
    "stimulus": "\n                <div class=\"phase-indicator\">TRAINING PHASE</div>\n                <div class=\"progress-info\">Choose an image: F = Left, J = Right</div>\n                <div class=\"image-pair-container\">\n                    <div class=\"image-choice\">\n                        <img src=\"non-feature/imageC.png\" alt=\"Image E\">\n                        <div class=\"key-label\">F</div>\n                    </div>\n                    <div class=\"image-choice\">\n                        <img src=\"non-feature/imageF.png\" alt=\"Image D\">\n                        <div class=\"key-label\">J</div>\n                    </div>\n                </div>\n            ",
    "response": "f",
    "trial_type": "html-keyboard-response",
    "trial_index": 23,
    "plugin_version": "2.1.0",
    "time_elapsed": 103670,
    "chosen_image": "E",
    "unchosen_image": "D",
    "chosen_side": "left",
    "reward": true,
    "reaction_time": 1091,
    "trial_number": 9
  },
  {
    "rt": null,
    "stimulus": "<div class=\"feedback reward\">REWARD! +0.3p</div>",
    "response": null,
    "trial_type": "html-keyboard-response",
    "trial_index": 24,
    "plugin_version": "2.1.0",
    "time_elapsed": 105186
  },
  {
    "phase": "training",
    "block": 2,
    "left_image": "F",
    "actual_left_image": "imageD.png",
    "right_image": "E",
    "actual_right_image": "imageC.png",
    "pair": "F-E",
    "condition": "non-feature",
    "rt": 1281,
    "stimulus": "\n                <div class=\"phase-indicator\">TRAINING PHASE</div>\n                <div class=\"progress-info\">Choose an image: F = Left, J = Right</div>\n                <div class=\"image-pair-container\">\n                    <div class=\"image-choice\">\n                        <img src=\"non-feature/imageD.png\" alt=\"Image F\">\n                        <div class=\"key-label\">F</div>\n                    </div>\n                    <div class=\"image-choice\">\n                        <img src=\"non-feature/imageC.png\" alt=\"Image E\">\n                        <div class=\"key-label\">J</div>\n                    </div>\n                </div>\n            ",
    "response": "j",
    "trial_type": "html-keyboard-response",
    "trial_index": 25,
    "plugin_version": "2.1.0",
    "time_elapsed": 106470,
    "chosen_image": "E",
    "unchosen_image": "F",
    "chosen_side": "right",
    "reward": false,
    "reaction_time": 1281,
    "trial_number": 10
  },
  {
    "rt": null,
    "stimulus": "<div class=\"feedback no-reward\">No reward</div>",
    "response": null,
    "trial_type": "html-keyboard-response",
    "trial_index": 26,
    "plugin_version": "2.1.0",
    "time_elapsed": 107981
  },
  {
    "phase": "training",
    "block": 2,
    "left_image": "B",
    "actual_left_image": "imageB.png",
    "right_image": "A",
    "actual_right_image": "imageE.png",
    "pair": "B-A",
    "condition": "non-feature",
    "rt": 919,
    "stimulus": "\n                <div class=\"phase-indicator\">TRAINING PHASE</div>\n                <div class=\"progress-info\">Choose an image: F = Left, J = Right</div>\n                <div class=\"image-pair-container\">\n                    <div class=\"image-choice\">\n                        <img src=\"non-feature/imageB.png\" alt=\"Image B\">\n                        <div class=\"key-label\">F</div>\n                    </div>\n                    <div class=\"image-choice\">\n                        <img src=\"non-feature/imageE.png\" alt=\"Image A\">\n                        <div class=\"key-label\">J</div>\n                    </div>\n                </div>\n            ",
    "response": "j",
    "trial_type": "html-keyboard-response",
    "trial_index": 27,
    "plugin_version": "2.1.0",
    "time_elapsed": 108902,
    "chosen_image": "A",
    "unchosen_image": "B",
    "chosen_side": "right",
    "reward": false,
    "reaction_time": 919,
    "trial_number": 11
  },
  {
    "rt": null,
    "stimulus": "<div class=\"feedback no-reward\">No reward</div>",
    "response": null,
    "trial_type": "html-keyboard-response",
    "trial_index": 28,
    "plugin_version": "2.1.0",
    "time_elapsed": 110405
  },
  {
    "phase": "training",
    "block": 2,
    "left_image": "D",
    "actual_left_image": "imageF.png",
    "right_image": "C",
    "actual_right_image": "imageA.png",
    "pair": "D-C",
    "condition": "non-feature",
    "rt": 1463,
    "stimulus": "\n                <div class=\"phase-indicator\">TRAINING PHASE</div>\n                <div class=\"progress-info\">Choose an image: F = Left, J = Right</div>\n                <div class=\"image-pair-container\">\n                    <div class=\"image-choice\">\n                        <img src=\"non-feature/imageF.png\" alt=\"Image D\">\n                        <div class=\"key-label\">F</div>\n                    </div>\n                    <div class=\"image-choice\">\n                        <img src=\"non-feature/imageA.png\" alt=\"Image C\">\n                        <div class=\"key-label\">J</div>\n                    </div>\n                </div>\n            ",
    "response": "f",
    "trial_type": "html-keyboard-response",
    "trial_index": 29,
    "plugin_version": "2.1.0",
    "time_elapsed": 111870,
    "chosen_image": "D",
    "unchosen_image": "C",
    "chosen_side": "left",
    "reward": false,
    "reaction_time": 1463,
    "trial_number": 12
  },
  {
    "rt": null,
    "stimulus": "<div class=\"feedback no-reward\">No reward</div>",
    "response": null,
    "trial_type": "html-keyboard-response",
    "trial_index": 30,
    "plugin_version": "2.1.0",
    "time_elapsed": 113384
  },
  {
    "phase": "training",
    "block": 2,
    "left_image": "E",
    "actual_left_image": "imageC.png",
    "right_image": "D",
    "actual_right_image": "imageF.png",
    "pair": "E-D",
    "condition": "non-feature",
    "rt": 556,
    "stimulus": "\n                <div class=\"phase-indicator\">TRAINING PHASE</div>\n                <div class=\"progress-info\">Choose an image: F = Left, J = Right</div>\n                <div class=\"image-pair-container\">\n                    <div class=\"image-choice\">\n                        <img src=\"non-feature/imageC.png\" alt=\"Image E\">\n                        <div class=\"key-label\">F</div>\n                    </div>\n                    <div class=\"image-choice\">\n                        <img src=\"non-feature/imageF.png\" alt=\"Image D\">\n                        <div class=\"key-label\">J</div>\n                    </div>\n                </div>\n            ",
    "response": "f",
    "trial_type": "html-keyboard-response",
    "trial_index": 31,
    "plugin_version": "2.1.0",
    "time_elapsed": 113942,
    "chosen_image": "E",
    "unchosen_image": "D",
    "chosen_side": "left",
    "reward": false,
    "reaction_time": 556,
    "trial_number": 13
  },
  {
    "rt": null,
    "stimulus": "<div class=\"feedback no-reward\">No reward</div>",
    "response": null,
    "trial_type": "html-keyboard-response",
    "trial_index": 32,
    "plugin_version": "2.1.0",
    "time_elapsed": 115453
  },
  {
    "phase": "training",
    "block": 2,
    "left_image": "C",
    "actual_left_image": "imageA.png",
    "right_image": "B",
    "actual_right_image": "imageB.png",
    "pair": "C-B",
    "condition": "non-feature",
    "rt": 527,
    "stimulus": "\n                <div class=\"phase-indicator\">TRAINING PHASE</div>\n                <div class=\"progress-info\">Choose an image: F = Left, J = Right</div>\n                <div class=\"image-pair-container\">\n                    <div class=\"image-choice\">\n                        <img src=\"non-feature/imageA.png\" alt=\"Image C\">\n                        <div class=\"key-label\">F</div>\n                    </div>\n                    <div class=\"image-choice\">\n                        <img src=\"non-feature/imageB.png\" alt=\"Image B\">\n                        <div class=\"key-label\">J</div>\n                    </div>\n                </div>\n            ",
    "response": "f",
    "trial_type": "html-keyboard-response",
    "trial_index": 33,
    "plugin_version": "2.1.0",
    "time_elapsed": 115982,
    "chosen_image": "C",
    "unchosen_image": "B",
    "chosen_side": "left",
    "reward": true,
    "reaction_time": 527,
    "trial_number": 14
  },
  {
    "rt": null,
    "stimulus": "<div class=\"feedback reward\">REWARD! +0.3p</div>",
    "response": null,
    "trial_type": "html-keyboard-response",
    "trial_index": 34,
    "plugin_version": "2.1.0",
    "time_elapsed": 117499
  },
  {
    "phase": "training",
    "block": 2,
    "left_image": "B",
    "actual_left_image": "imageB.png",
    "right_image": "C",
    "actual_right_image": "imageA.png",
    "pair": "B-C",
    "condition": "non-feature",
    "rt": 625,
    "stimulus": "\n                <div class=\"phase-indicator\">TRAINING PHASE</div>\n                <div class=\"progress-info\">Choose an image: F = Left, J = Right</div>\n                <div class=\"image-pair-container\">\n                    <div class=\"image-choice\">\n                        <img src=\"non-feature/imageB.png\" alt=\"Image B\">\n                        <div class=\"key-label\">F</div>\n                    </div>\n                    <div class=\"image-choice\">\n                        <img src=\"non-feature/imageA.png\" alt=\"Image C\">\n                        <div class=\"key-label\">J</div>\n                    </div>\n                </div>\n            ",
    "response": "j",
    "trial_type": "html-keyboard-response",
    "trial_index": 35,
    "plugin_version": "2.1.0",
    "time_elapsed": 118126,
    "chosen_image": "C",
    "unchosen_image": "B",
    "chosen_side": "right",
    "reward": false,
    "reaction_time": 625,
    "trial_number": 15
  },
  {
    "rt": null,
    "stimulus": "<div class=\"feedback no-reward\">No reward</div>",
    "response": null,
    "trial_type": "html-keyboard-response",
    "trial_index": 36,
    "plugin_version": "2.1.0",
    "time_elapsed": 119637
  },
  {
    "phase": "training",
    "block": 2,
    "left_image": "A",
    "actual_left_image": "imageE.png",
    "right_image": "B",
    "actual_right_image": "imageB.png",
    "pair": "A-B",
    "condition": "non-feature",
    "rt": 526,
    "stimulus": "\n                <div class=\"phase-indicator\">TRAINING PHASE</div>\n                <div class=\"progress-info\">Choose an image: F = Left, J = Right</div>\n                <div class=\"image-pair-container\">\n                    <div class=\"image-choice\">\n                        <img src=\"non-feature/imageE.png\" alt=\"Image A\">\n                        <div class=\"key-label\">F</div>\n                    </div>\n                    <div class=\"image-choice\">\n                        <img src=\"non-feature/imageB.png\" alt=\"Image B\">\n                        <div class=\"key-label\">J</div>\n                    </div>\n                </div>\n            ",
    "response": "j",
    "trial_type": "html-keyboard-response",
    "trial_index": 37,
    "plugin_version": "2.1.0",
    "time_elapsed": 120166,
    "chosen_image": "B",
    "unchosen_image": "A",
    "chosen_side": "right",
    "reward": true,
    "reaction_time": 526,
    "trial_number": 16
  },
  {
    "rt": null,
    "stimulus": "<div class=\"feedback reward\">REWARD! +0.3p</div>",
    "response": null,
    "trial_type": "html-keyboard-response",
    "trial_index": 38,
    "plugin_version": "2.1.0",
    "time_elapsed": 121675
  },
  {
    "phase": "training",
    "block": 2,
    "left_image": "C",
    "actual_left_image": "imageA.png",
    "right_image": "D",
    "actual_right_image": "imageF.png",
    "pair": "C-D",
    "condition": "non-feature",
    "rt": 2705,
    "stimulus": "\n                <div class=\"phase-indicator\">TRAINING PHASE</div>\n                <div class=\"progress-info\">Choose an image: F = Left, J = Right</div>\n                <div class=\"image-pair-container\">\n                    <div class=\"image-choice\">\n                        <img src=\"non-feature/imageA.png\" alt=\"Image C\">\n                        <div class=\"key-label\">F</div>\n                    </div>\n                    <div class=\"image-choice\">\n                        <img src=\"non-feature/imageF.png\" alt=\"Image D\">\n                        <div class=\"key-label\">J</div>\n                    </div>\n                </div>\n            ",
    "response": "j",
    "trial_type": "html-keyboard-response",
    "trial_index": 39,
    "plugin_version": "2.1.0",
    "time_elapsed": 124382,
    "chosen_image": "D",
    "unchosen_image": "C",
    "chosen_side": "right",
    "reward": false,
    "reaction_time": 2705,
    "trial_number": 17
  },
  {
    "rt": null,
    "stimulus": "<div class=\"feedback no-reward\">No reward</div>",
    "response": null,
    "trial_type": "html-keyboard-response",
    "trial_index": 40,
    "plugin_version": "2.1.0",
    "time_elapsed": 125889
  },
  {
    "phase": "training",
    "block": 2,
    "left_image": "D",
    "actual_left_image": "imageF.png",
    "right_image": "E",
    "actual_right_image": "imageC.png",
    "pair": "D-E",
    "condition": "non-feature",
    "rt": 1058,
    "stimulus": "\n                <div class=\"phase-indicator\">TRAINING PHASE</div>\n                <div class=\"progress-info\">Choose an image: F = Left, J = Right</div>\n                <div class=\"image-pair-container\">\n                    <div class=\"image-choice\">\n                        <img src=\"non-feature/imageF.png\" alt=\"Image D\">\n                        <div class=\"key-label\">F</div>\n                    </div>\n                    <div class=\"image-choice\">\n                        <img src=\"non-feature/imageC.png\" alt=\"Image E\">\n                        <div class=\"key-label\">J</div>\n                    </div>\n                </div>\n            ",
    "response": "f",
    "trial_type": "html-keyboard-response",
    "trial_index": 41,
    "plugin_version": "2.1.0",
    "time_elapsed": 126950,
    "chosen_image": "D",
    "unchosen_image": "E",
    "chosen_side": "left",
    "reward": true,
    "reaction_time": 1058,
    "trial_number": 18
  },
  {
    "rt": null,
    "stimulus": "<div class=\"feedback reward\">REWARD! +0.3p</div>",
    "response": null,
    "trial_type": "html-keyboard-response",
    "trial_index": 42,
    "plugin_version": "2.1.0",
    "time_elapsed": 128454
  },
  {
    "phase": "training",
    "block": 2,
    "left_image": "E",
    "actual_left_image": "imageC.png",
    "right_image": "F",
    "actual_right_image": "imageD.png",
    "pair": "E-F",
    "condition": "non-feature",
    "rt": 1214,
    "stimulus": "\n                <div class=\"phase-indicator\">TRAINING PHASE</div>\n                <div class=\"progress-info\">Choose an image: F = Left, J = Right</div>\n                <div class=\"image-pair-container\">\n                    <div class=\"image-choice\">\n                        <img src=\"non-feature/imageC.png\" alt=\"Image E\">\n                        <div class=\"key-label\">F</div>\n                    </div>\n                    <div class=\"image-choice\">\n                        <img src=\"non-feature/imageD.png\" alt=\"Image F\">\n                        <div class=\"key-label\">J</div>\n                    </div>\n                </div>\n            ",
    "response": "j",
    "trial_type": "html-keyboard-response",
    "trial_index": 43,
    "plugin_version": "2.1.0",
    "time_elapsed": 129670,
    "chosen_image": "F",
    "unchosen_image": "E",
    "chosen_side": "right",
    "reward": false,
    "reaction_time": 1214,
    "trial_number": 19
  },
  {
    "rt": null,
    "stimulus": "<div class=\"feedback no-reward\">No reward</div>",
    "response": null,
    "trial_type": "html-keyboard-response",
    "trial_index": 44,
    "plugin_version": "2.1.0",
    "time_elapsed": 131178
  },
  {
    "phase": "training",
    "block": 3,
    "left_image": "F",
    "actual_left_image": "imageD.png",
    "right_image": "E",
    "actual_right_image": "imageC.png",
    "pair": "F-E",
    "condition": "non-feature",
    "rt": 1162,
    "stimulus": "\n                <div class=\"phase-indicator\">TRAINING PHASE</div>\n                <div class=\"progress-info\">Choose an image: F = Left, J = Right</div>\n                <div class=\"image-pair-container\">\n                    <div class=\"image-choice\">\n                        <img src=\"non-feature/imageD.png\" alt=\"Image F\">\n                        <div class=\"key-label\">F</div>\n                    </div>\n                    <div class=\"image-choice\">\n                        <img src=\"non-feature/imageC.png\" alt=\"Image E\">\n                        <div class=\"key-label\">J</div>\n                    </div>\n                </div>\n            ",
    "response": "j",
    "trial_type": "html-keyboard-response",
    "trial_index": 45,
    "plugin_version": "2.1.0",
    "time_elapsed": 132342,
    "chosen_image": "E",
    "unchosen_image": "F",
    "chosen_side": "right",
    "reward": true,
    "reaction_time": 1162,
    "trial_number": 20
  },
  {
    "rt": null,
    "stimulus": "<div class=\"feedback reward\">REWARD! +0.3p</div>",
    "response": null,
    "trial_type": "html-keyboard-response",
    "trial_index": 46,
    "plugin_version": "2.1.0",
    "time_elapsed": 133856
  },
  {
    "phase": "training",
    "block": 3,
    "left_image": "B",
    "actual_left_image": "imageB.png",
    "right_image": "A",
    "actual_right_image": "imageE.png",
    "pair": "B-A",
    "condition": "non-feature",
    "rt": 924,
    "stimulus": "\n                <div class=\"phase-indicator\">TRAINING PHASE</div>\n                <div class=\"progress-info\">Choose an image: F = Left, J = Right</div>\n                <div class=\"image-pair-container\">\n                    <div class=\"image-choice\">\n                        <img src=\"non-feature/imageB.png\" alt=\"Image B\">\n                        <div class=\"key-label\">F</div>\n                    </div>\n                    <div class=\"image-choice\">\n                        <img src=\"non-feature/imageE.png\" alt=\"Image A\">\n                        <div class=\"key-label\">J</div>\n                    </div>\n                </div>\n            ",
    "response": "f",
    "trial_type": "html-keyboard-response",
    "trial_index": 47,
    "plugin_version": "2.1.0",
    "time_elapsed": 134782,
    "chosen_image": "B",
    "unchosen_image": "A",
    "chosen_side": "left",
    "reward": true,
    "reaction_time": 924,
    "trial_number": 21
  },
  {
    "rt": null,
    "stimulus": "<div class=\"feedback reward\">REWARD! +0.3p</div>",
    "response": null,
    "trial_type": "html-keyboard-response",
    "trial_index": 48,
    "plugin_version": "2.1.0",
    "time_elapsed": 136296
  },
  {
    "phase": "training",
    "block": 3,
    "left_image": "B",
    "actual_left_image": "imageB.png",
    "right_image": "C",
    "actual_right_image": "imageA.png",
    "pair": "B-C",
    "condition": "non-feature",
    "rt": 956,
    "stimulus": "\n                <div class=\"phase-indicator\">TRAINING PHASE</div>\n                <div class=\"progress-info\">Choose an image: F = Left, J = Right</div>\n                <div class=\"image-pair-container\">\n                    <div class=\"image-choice\">\n                        <img src=\"non-feature/imageB.png\" alt=\"Image B\">\n                        <div class=\"key-label\">F</div>\n                    </div>\n                    <div class=\"image-choice\">\n                        <img src=\"non-feature/imageA.png\" alt=\"Image C\">\n                        <div class=\"key-label\">J</div>\n                    </div>\n                </div>\n            ",
    "response": "j",
    "trial_type": "html-keyboard-response",
    "trial_index": 49,
    "plugin_version": "2.1.0",
    "time_elapsed": 137254,
    "chosen_image": "C",
    "unchosen_image": "B",
    "chosen_side": "right",
    "reward": false,
    "reaction_time": 956,
    "trial_number": 22
  },
  {
    "rt": null,
    "stimulus": "<div class=\"feedback no-reward\">No reward</div>",
    "response": null,
    "trial_type": "html-keyboard-response",
    "trial_index": 50,
    "plugin_version": "2.1.0",
    "time_elapsed": 138773
  },
  {
    "phase": "training",
    "block": 3,
    "left_image": "D",
    "actual_left_image": "imageF.png",
    "right_image": "C",
    "actual_right_image": "imageA.png",
    "pair": "D-C",
    "condition": "non-feature",
    "rt": 735,
    "stimulus": "\n                <div class=\"phase-indicator\">TRAINING PHASE</div>\n                <div class=\"progress-info\">Choose an image: F = Left, J = Right</div>\n                <div class=\"image-pair-container\">\n                    <div class=\"image-choice\">\n                        <img src=\"non-feature/imageF.png\" alt=\"Image D\">\n                        <div class=\"key-label\">F</div>\n                    </div>\n                    <div class=\"image-choice\">\n                        <img src=\"non-feature/imageA.png\" alt=\"Image C\">\n                        <div class=\"key-label\">J</div>\n                    </div>\n                </div>\n            ",
    "response": "j",
    "trial_type": "html-keyboard-response",
    "trial_index": 51,
    "plugin_version": "2.1.0",
    "time_elapsed": 139510,
    "chosen_image": "C",
    "unchosen_image": "D",
    "chosen_side": "right",
    "reward": false,
    "reaction_time": 735,
    "trial_number": 23
  },
  {
    "rt": null,
    "stimulus": "<div class=\"feedback no-reward\">No reward</div>",
    "response": null,
    "trial_type": "html-keyboard-response",
    "trial_index": 52,
    "plugin_version": "2.1.0",
    "time_elapsed": 141011
  },
  {
    "phase": "training",
    "block": 3,
    "left_image": "E",
    "actual_left_image": "imageC.png",
    "right_image": "F",
    "actual_right_image": "imageD.png",
    "pair": "E-F",
    "condition": "non-feature",
    "rt": 1200,
    "stimulus": "\n                <div class=\"phase-indicator\">TRAINING PHASE</div>\n                <div class=\"progress-info\">Choose an image: F = Left, J = Right</div>\n                <div class=\"image-pair-container\">\n                    <div class=\"image-choice\">\n                        <img src=\"non-feature/imageC.png\" alt=\"Image E\">\n                        <div class=\"key-label\">F</div>\n                    </div>\n                    <div class=\"image-choice\">\n                        <img src=\"non-feature/imageD.png\" alt=\"Image F\">\n                        <div class=\"key-label\">J</div>\n                    </div>\n                </div>\n            ",
    "response": "j",
    "trial_type": "html-keyboard-response",
    "trial_index": 53,
    "plugin_version": "2.1.0",
    "time_elapsed": 142214,
    "chosen_image": "F",
    "unchosen_image": "E",
    "chosen_side": "right",
    "reward": true,
    "reaction_time": 1200,
    "trial_number": 24
  },
  {
    "rt": null,
    "stimulus": "<div class=\"feedback reward\">REWARD! +0.3p</div>",
    "response": null,
    "trial_type": "html-keyboard-response",
    "trial_index": 54,
    "plugin_version": "2.1.0",
    "time_elapsed": 143721
  },
  {
    "phase": "training",
    "block": 3,
    "left_image": "A",
    "actual_left_image": "imageE.png",
    "right_image": "B",
    "actual_right_image": "imageB.png",
    "pair": "A-B",
    "condition": "non-feature",
    "rt": 1372,
    "stimulus": "\n                <div class=\"phase-indicator\">TRAINING PHASE</div>\n                <div class=\"progress-info\">Choose an image: F = Left, J = Right</div>\n                <div class=\"image-pair-container\">\n                    <div class=\"image-choice\">\n                        <img src=\"non-feature/imageE.png\" alt=\"Image A\">\n                        <div class=\"key-label\">F</div>\n                    </div>\n                    <div class=\"image-choice\">\n                        <img src=\"non-feature/imageB.png\" alt=\"Image B\">\n                        <div class=\"key-label\">J</div>\n                    </div>\n                </div>\n            ",
    "response": "j",
    "trial_type": "html-keyboard-response",
    "trial_index": 55,
    "plugin_version": "2.1.0",
    "time_elapsed": 145094,
    "chosen_image": "B",
    "unchosen_image": "A",
    "chosen_side": "right",
    "reward": true,
    "reaction_time": 1372,
    "trial_number": 25
  },
  {
    "rt": null,
    "stimulus": "<div class=\"feedback reward\">REWARD! +0.3p</div>",
    "response": null,
    "trial_type": "html-keyboard-response",
    "trial_index": 56,
    "plugin_version": "2.1.0",
    "time_elapsed": 146599
  },
  {
    "phase": "training",
    "block": 3,
    "left_image": "C",
    "actual_left_image": "imageA.png",
    "right_image": "D",
    "actual_right_image": "imageF.png",
    "pair": "C-D",
    "condition": "non-feature",
    "rt": 925,
    "stimulus": "\n                <div class=\"phase-indicator\">TRAINING PHASE</div>\n                <div class=\"progress-info\">Choose an image: F = Left, J = Right</div>\n                <div class=\"image-pair-container\">\n                    <div class=\"image-choice\">\n                        <img src=\"non-feature/imageA.png\" alt=\"Image C\">\n                        <div class=\"key-label\">F</div>\n                    </div>\n                    <div class=\"image-choice\">\n                        <img src=\"non-feature/imageF.png\" alt=\"Image D\">\n                        <div class=\"key-label\">J</div>\n                    </div>\n                </div>\n            ",
    "response": "f",
    "trial_type": "html-keyboard-response",
    "trial_index": 57,
    "plugin_version": "2.1.0",
    "time_elapsed": 147526,
    "chosen_image": "C",
    "unchosen_image": "D",
    "chosen_side": "left",
    "reward": true,
    "reaction_time": 925,
    "trial_number": 26
  },
  {
    "rt": null,
    "stimulus": "<div class=\"feedback reward\">REWARD! +0.3p</div>",
    "response": null,
    "trial_type": "html-keyboard-response",
    "trial_index": 58,
    "plugin_version": "2.1.0",
    "time_elapsed": 149039
  },
  {
    "phase": "training",
    "block": 3,
    "left_image": "C",
    "actual_left_image": "imageA.png",
    "right_image": "B",
    "actual_right_image": "imageB.png",
    "pair": "C-B",
    "condition": "non-feature",
    "rt": 940,
    "stimulus": "\n                <div class=\"phase-indicator\">TRAINING PHASE</div>\n                <div class=\"progress-info\">Choose an image: F = Left, J = Right</div>\n                <div class=\"image-pair-container\">\n                    <div class=\"image-choice\">\n                        <img src=\"non-feature/imageA.png\" alt=\"Image C\">\n                        <div class=\"key-label\">F</div>\n                    </div>\n                    <div class=\"image-choice\">\n                        <img src=\"non-feature/imageB.png\" alt=\"Image B\">\n                        <div class=\"key-label\">J</div>\n                    </div>\n                </div>\n            ",
    "response": "f",
    "trial_type": "html-keyboard-response",
    "trial_index": 59,
    "plugin_version": "2.1.0",
    "time_elapsed": 149982,
    "chosen_image": "C",
    "unchosen_image": "B",
    "chosen_side": "left",
    "reward": false,
    "reaction_time": 940,
    "trial_number": 27
  },
  {
    "rt": null,
    "stimulus": "<div class=\"feedback no-reward\">No reward</div>",
    "response": null,
    "trial_type": "html-keyboard-response",
    "trial_index": 60,
    "plugin_version": "2.1.0",
    "time_elapsed": 151495
  },
  {
    "phase": "training",
    "block": 3,
    "left_image": "E",
    "actual_left_image": "imageC.png",
    "right_image": "D",
    "actual_right_image": "imageF.png",
    "pair": "E-D",
    "condition": "non-feature",
    "rt": 1157,
    "stimulus": "\n                <div class=\"phase-indicator\">TRAINING PHASE</div>\n                <div class=\"progress-info\">Choose an image: F = Left, J = Right</div>\n                <div class=\"image-pair-container\">\n                    <div class=\"image-choice\">\n                        <img src=\"non-feature/imageC.png\" alt=\"Image E\">\n                        <div class=\"key-label\">F</div>\n                    </div>\n                    <div class=\"image-choice\">\n                        <img src=\"non-feature/imageF.png\" alt=\"Image D\">\n                        <div class=\"key-label\">J</div>\n                    </div>\n                </div>\n            ",
    "response": "f",
    "trial_type": "html-keyboard-response",
    "trial_index": 61,
    "plugin_version": "2.1.0",
    "time_elapsed": 152654,
    "chosen_image": "E",
    "unchosen_image": "D",
    "chosen_side": "left",
    "reward": false,
    "reaction_time": 1157,
    "trial_number": 28
  },
  {
    "rt": null,
    "stimulus": "<div class=\"feedback no-reward\">No reward</div>",
    "response": null,
    "trial_type": "html-keyboard-response",
    "trial_index": 62,
    "plugin_version": "2.1.0",
    "time_elapsed": 154157
  },
  {
    "phase": "training",
    "block": 3,
    "left_image": "D",
    "actual_left_image": "imageF.png",
    "right_image": "E",
    "actual_right_image": "imageC.png",
    "pair": "D-E",
    "condition": "non-feature",
    "rt": 1143,
    "stimulus": "\n                <div class=\"phase-indicator\">TRAINING PHASE</div>\n                <div class=\"progress-info\">Choose an image: F = Left, J = Right</div>\n                <div class=\"image-pair-container\">\n                    <div class=\"image-choice\">\n                        <img src=\"non-feature/imageF.png\" alt=\"Image D\">\n                        <div class=\"key-label\">F</div>\n                    </div>\n                    <div class=\"image-choice\">\n                        <img src=\"non-feature/imageC.png\" alt=\"Image E\">\n                        <div class=\"key-label\">J</div>\n                    </div>\n                </div>\n            ",
    "response": "f",
    "trial_type": "html-keyboard-response",
    "trial_index": 63,
    "plugin_version": "2.1.0",
    "time_elapsed": 155302,
    "chosen_image": "D",
    "unchosen_image": "E",
    "chosen_side": "left",
    "reward": true,
    "reaction_time": 1143,
    "trial_number": 29
  },
  {
    "rt": null,
    "stimulus": "<div class=\"feedback reward\">REWARD! +0.3p</div>",
    "response": null,
    "trial_type": "html-keyboard-response",
    "trial_index": 64,
    "plugin_version": "2.1.0",
    "time_elapsed": 156813
  },
  {
    "phase": "training",
    "block": 4,
    "left_image": "E",
    "actual_left_image": "imageC.png",
    "right_image": "D",
    "actual_right_image": "imageF.png",
    "pair": "E-D",
    "condition": "non-feature",
    "rt": 999,
    "stimulus": "\n                <div class=\"phase-indicator\">TRAINING PHASE</div>\n                <div class=\"progress-info\">Choose an image: F = Left, J = Right</div>\n                <div class=\"image-pair-container\">\n                    <div class=\"image-choice\">\n                        <img src=\"non-feature/imageC.png\" alt=\"Image E\">\n                        <div class=\"key-label\">F</div>\n                    </div>\n                    <div class=\"image-choice\">\n                        <img src=\"non-feature/imageF.png\" alt=\"Image D\">\n                        <div class=\"key-label\">J</div>\n                    </div>\n                </div>\n            ",
    "response": "j",
    "trial_type": "html-keyboard-response",
    "trial_index": 65,
    "plugin_version": "2.1.0",
    "time_elapsed": 157814,
    "chosen_image": "D",
    "unchosen_image": "E",
    "chosen_side": "right",
    "reward": false,
    "reaction_time": 999,
    "trial_number": 30
  },
  {
    "rt": null,
    "stimulus": "<div class=\"feedback no-reward\">No reward</div>",
    "response": null,
    "trial_type": "html-keyboard-response",
    "trial_index": 66,
    "plugin_version": "2.1.0",
    "time_elapsed": 159322
  },
  {
    "phase": "training",
    "block": 4,
    "left_image": "B",
    "actual_left_image": "imageB.png",
    "right_image": "A",
    "actual_right_image": "imageE.png",
    "pair": "B-A",
    "condition": "non-feature",
    "rt": 1104,
    "stimulus": "\n                <div class=\"phase-indicator\">TRAINING PHASE</div>\n                <div class=\"progress-info\">Choose an image: F = Left, J = Right</div>\n                <div class=\"image-pair-container\">\n                    <div class=\"image-choice\">\n                        <img src=\"non-feature/imageB.png\" alt=\"Image B\">\n                        <div class=\"key-label\">F</div>\n                    </div>\n                    <div class=\"image-choice\">\n                        <img src=\"non-feature/imageE.png\" alt=\"Image A\">\n                        <div class=\"key-label\">J</div>\n                    </div>\n                </div>\n            ",
    "response": "j",
    "trial_type": "html-keyboard-response",
    "trial_index": 67,
    "plugin_version": "2.1.0",
    "time_elapsed": 160428,
    "chosen_image": "A",
    "unchosen_image": "B",
    "chosen_side": "right",
    "reward": true,
    "reaction_time": 1104,
    "trial_number": 31
  },
  {
    "rt": null,
    "stimulus": "<div class=\"feedback reward\">REWARD! +0.3p</div>",
    "response": null,
    "trial_type": "html-keyboard-response",
    "trial_index": 68,
    "plugin_version": "2.1.0",
    "time_elapsed": 161931
  },
  {
    "phase": "training",
    "block": 4,
    "left_image": "D",
    "actual_left_image": "imageF.png",
    "right_image": "C",
    "actual_right_image": "imageA.png",
    "pair": "D-C",
    "condition": "non-feature",
    "rt": 1217,
    "stimulus": "\n                <div class=\"phase-indicator\">TRAINING PHASE</div>\n                <div class=\"progress-info\">Choose an image: F = Left, J = Right</div>\n                <div class=\"image-pair-container\">\n                    <div class=\"image-choice\">\n                        <img src=\"non-feature/imageF.png\" alt=\"Image D\">\n                        <div class=\"key-label\">F</div>\n                    </div>\n                    <div class=\"image-choice\">\n                        <img src=\"non-feature/imageA.png\" alt=\"Image C\">\n                        <div class=\"key-label\">J</div>\n                    </div>\n                </div>\n            ",
    "response": "j",
    "trial_type": "html-keyboard-response",
    "trial_index": 69,
    "plugin_version": "2.1.0",
    "time_elapsed": 163150,
    "chosen_image": "C",
    "unchosen_image": "D",
    "chosen_side": "right",
    "reward": false,
    "reaction_time": 1217,
    "trial_number": 32
  },
  {
    "rt": null,
    "stimulus": "<div class=\"feedback no-reward\">No reward</div>",
    "response": null,
    "trial_type": "html-keyboard-response",
    "trial_index": 70,
    "plugin_version": "2.1.0",
    "time_elapsed": 164663
  },
  {
    "phase": "training",
    "block": 4,
    "left_image": "E",
    "actual_left_image": "imageC.png",
    "right_image": "F",
    "actual_right_image": "imageD.png",
    "pair": "E-F",
    "condition": "non-feature",
    "rt": 1581,
    "stimulus": "\n                <div class=\"phase-indicator\">TRAINING PHASE</div>\n                <div class=\"progress-info\">Choose an image: F = Left, J = Right</div>\n                <div class=\"image-pair-container\">\n                    <div class=\"image-choice\">\n                        <img src=\"non-feature/imageC.png\" alt=\"Image E\">\n                        <div class=\"key-label\">F</div>\n                    </div>\n                    <div class=\"image-choice\">\n                        <img src=\"non-feature/imageD.png\" alt=\"Image F\">\n                        <div class=\"key-label\">J</div>\n                    </div>\n                </div>\n            ",
    "response": "f",
    "trial_type": "html-keyboard-response",
    "trial_index": 71,
    "plugin_version": "2.1.0",
    "time_elapsed": 166246,
    "chosen_image": "E",
    "unchosen_image": "F",
    "chosen_side": "left",
    "reward": true,
    "reaction_time": 1581,
    "trial_number": 33
  },
  {
    "rt": null,
    "stimulus": "<div class=\"feedback reward\">REWARD! +0.3p</div>",
    "response": null,
    "trial_type": "html-keyboard-response",
    "trial_index": 72,
    "plugin_version": "2.1.0",
    "time_elapsed": 167752
  },
  {
    "phase": "training",
    "block": 4,
    "left_image": "F",
    "actual_left_image": "imageD.png",
    "right_image": "E",
    "actual_right_image": "imageC.png",
    "pair": "F-E",
    "condition": "non-feature",
    "rt": 1436,
    "stimulus": "\n                <div class=\"phase-indicator\">TRAINING PHASE</div>\n                <div class=\"progress-info\">Choose an image: F = Left, J = Right</div>\n                <div class=\"image-pair-container\">\n                    <div class=\"image-choice\">\n                        <img src=\"non-feature/imageD.png\" alt=\"Image F\">\n                        <div class=\"key-label\">F</div>\n                    </div>\n                    <div class=\"image-choice\">\n                        <img src=\"non-feature/imageC.png\" alt=\"Image E\">\n                        <div class=\"key-label\">J</div>\n                    </div>\n                </div>\n            ",
    "response": "f",
    "trial_type": "html-keyboard-response",
    "trial_index": 73,
    "plugin_version": "2.1.0",
    "time_elapsed": 169190,
    "chosen_image": "F",
    "unchosen_image": "E",
    "chosen_side": "left",
    "reward": true,
    "reaction_time": 1436,
    "trial_number": 34
  },
  {
    "rt": null,
    "stimulus": "<div class=\"feedback reward\">REWARD! +0.3p</div>",
    "response": null,
    "trial_type": "html-keyboard-response",
    "trial_index": 74,
    "plugin_version": "2.1.0",
    "time_elapsed": 170699
  },
  {
    "phase": "training",
    "block": 4,
    "left_image": "D",
    "actual_left_image": "imageF.png",
    "right_image": "E",
    "actual_right_image": "imageC.png",
    "pair": "D-E",
    "condition": "non-feature",
    "rt": 1288,
    "stimulus": "\n                <div class=\"phase-indicator\">TRAINING PHASE</div>\n                <div class=\"progress-info\">Choose an image: F = Left, J = Right</div>\n                <div class=\"image-pair-container\">\n                    <div class=\"image-choice\">\n                        <img src=\"non-feature/imageF.png\" alt=\"Image D\">\n                        <div class=\"key-label\">F</div>\n                    </div>\n                    <div class=\"image-choice\">\n                        <img src=\"non-feature/imageC.png\" alt=\"Image E\">\n                        <div class=\"key-label\">J</div>\n                    </div>\n                </div>\n            ",
    "response": "j",
    "trial_type": "html-keyboard-response",
    "trial_index": 75,
    "plugin_version": "2.1.0",
    "time_elapsed": 171990,
    "chosen_image": "E",
    "unchosen_image": "D",
    "chosen_side": "right",
    "reward": true,
    "reaction_time": 1288,
    "trial_number": 35
  },
  {
    "rt": null,
    "stimulus": "<div class=\"feedback reward\">REWARD! +0.3p</div>",
    "response": null,
    "trial_type": "html-keyboard-response",
    "trial_index": 76,
    "plugin_version": "2.1.0",
    "time_elapsed": 173493
  },
  {
    "phase": "training",
    "block": 4,
    "left_image": "C",
    "actual_left_image": "imageA.png",
    "right_image": "B",
    "actual_right_image": "imageB.png",
    "pair": "C-B",
    "condition": "non-feature",
    "rt": 830,
    "stimulus": "\n                <div class=\"phase-indicator\">TRAINING PHASE</div>\n                <div class=\"progress-info\">Choose an image: F = Left, J = Right</div>\n                <div class=\"image-pair-container\">\n                    <div class=\"image-choice\">\n                        <img src=\"non-feature/imageA.png\" alt=\"Image C\">\n                        <div class=\"key-label\">F</div>\n                    </div>\n                    <div class=\"image-choice\">\n                        <img src=\"non-feature/imageB.png\" alt=\"Image B\">\n                        <div class=\"key-label\">J</div>\n                    </div>\n                </div>\n            ",
    "response": "f",
    "trial_type": "html-keyboard-response",
    "trial_index": 77,
    "plugin_version": "2.1.0",
    "time_elapsed": 174326,
    "chosen_image": "C",
    "unchosen_image": "B",
    "chosen_side": "left",
    "reward": false,
    "reaction_time": 830,
    "trial_number": 36
  },
  {
    "rt": null,
    "stimulus": "<div class=\"feedback no-reward\">No reward</div>",
    "response": null,
    "trial_type": "html-keyboard-response",
    "trial_index": 78,
    "plugin_version": "2.1.0",
    "time_elapsed": 175833
  },
  {
    "phase": "training",
    "block": 4,
    "left_image": "B",
    "actual_left_image": "imageB.png",
    "right_image": "C",
    "actual_right_image": "imageA.png",
    "pair": "B-C",
    "condition": "non-feature",
    "rt": 667,
    "stimulus": "\n                <div class=\"phase-indicator\">TRAINING PHASE</div>\n                <div class=\"progress-info\">Choose an image: F = Left, J = Right</div>\n                <div class=\"image-pair-container\">\n                    <div class=\"image-choice\">\n                        <img src=\"non-feature/imageB.png\" alt=\"Image B\">\n                        <div class=\"key-label\">F</div>\n                    </div>\n                    <div class=\"image-choice\">\n                        <img src=\"non-feature/imageA.png\" alt=\"Image C\">\n                        <div class=\"key-label\">J</div>\n                    </div>\n                </div>\n            ",
    "response": "j",
    "trial_type": "html-keyboard-response",
    "trial_index": 79,
    "plugin_version": "2.1.0",
    "time_elapsed": 176502,
    "chosen_image": "C",
    "unchosen_image": "B",
    "chosen_side": "right",
    "reward": false,
    "reaction_time": 667,
    "trial_number": 37
  },
  {
    "rt": null,
    "stimulus": "<div class=\"feedback no-reward\">No reward</div>",
    "response": null,
    "trial_type": "html-keyboard-response",
    "trial_index": 80,
    "plugin_version": "2.1.0",
    "time_elapsed": 178009
  },
  {
    "phase": "training",
    "block": 4,
    "left_image": "C",
    "actual_left_image": "imageA.png",
    "right_image": "D",
    "actual_right_image": "imageF.png",
    "pair": "C-D",
    "condition": "non-feature",
    "rt": 931,
    "stimulus": "\n                <div class=\"phase-indicator\">TRAINING PHASE</div>\n                <div class=\"progress-info\">Choose an image: F = Left, J = Right</div>\n                <div class=\"image-pair-container\">\n                    <div class=\"image-choice\">\n                        <img src=\"non-feature/imageA.png\" alt=\"Image C\">\n                        <div class=\"key-label\">F</div>\n                    </div>\n                    <div class=\"image-choice\">\n                        <img src=\"non-feature/imageF.png\" alt=\"Image D\">\n                        <div class=\"key-label\">J</div>\n                    </div>\n                </div>\n            ",
    "response": "f",
    "trial_type": "html-keyboard-response",
    "trial_index": 81,
    "plugin_version": "2.1.0",
    "time_elapsed": 178942,
    "chosen_image": "C",
    "unchosen_image": "D",
    "chosen_side": "left",
    "reward": false,
    "reaction_time": 931,
    "trial_number": 38
  },
  {
    "rt": null,
    "stimulus": "<div class=\"feedback no-reward\">No reward</div>",
    "response": null,
    "trial_type": "html-keyboard-response",
    "trial_index": 82,
    "plugin_version": "2.1.0",
    "time_elapsed": 180448
  },
  {
    "phase": "training",
    "block": 4,
    "left_image": "A",
    "actual_left_image": "imageE.png",
    "right_image": "B",
    "actual_right_image": "imageB.png",
    "pair": "A-B",
    "condition": "non-feature",
    "rt": 1259,
    "stimulus": "\n                <div class=\"phase-indicator\">TRAINING PHASE</div>\n                <div class=\"progress-info\">Choose an image: F = Left, J = Right</div>\n                <div class=\"image-pair-container\">\n                    <div class=\"image-choice\">\n                        <img src=\"non-feature/imageE.png\" alt=\"Image A\">\n                        <div class=\"key-label\">F</div>\n                    </div>\n                    <div class=\"image-choice\">\n                        <img src=\"non-feature/imageB.png\" alt=\"Image B\">\n                        <div class=\"key-label\">J</div>\n                    </div>\n                </div>\n            ",
    "response": "f",
    "trial_type": "html-keyboard-response",
    "trial_index": 83,
    "plugin_version": "2.1.0",
    "time_elapsed": 181710,
    "chosen_image": "A",
    "unchosen_image": "B",
    "chosen_side": "left",
    "reward": true,
    "reaction_time": 1259,
    "trial_number": 39
  },
  {
    "rt": null,
    "stimulus": "<div class=\"feedback reward\">REWARD! +0.3p</div>",
    "response": null,
    "trial_type": "html-keyboard-response",
    "trial_index": 84,
    "plugin_version": "2.1.0",
    "time_elapsed": 183227
  },
  {
    "rt": 11210,
    "stimulus": "<p>Take a break for a few seconds if needed.</p>\n                       <p>Press any key to continue</p>",
    "response": " ",
    "trial_type": "html-keyboard-response",
    "trial_index": 85,
    "plugin_version": "2.1.0",
    "time_elapsed": 194438
  },
  {
    "phase": "training",
    "block": 5,
    "left_image": "C",
    "actual_left_image": "imageA.png",
    "right_image": "D",
    "actual_right_image": "imageF.png",
    "pair": "C-D",
    "condition": "non-feature",
    "rt": 3765,
    "stimulus": "\n                <div class=\"phase-indicator\">TRAINING PHASE</div>\n                <div class=\"progress-info\">Choose an image: F = Left, J = Right</div>\n                <div class=\"image-pair-container\">\n                    <div class=\"image-choice\">\n                        <img src=\"non-feature/imageA.png\" alt=\"Image C\">\n                        <div class=\"key-label\">F</div>\n                    </div>\n                    <div class=\"image-choice\">\n                        <img src=\"non-feature/imageF.png\" alt=\"Image D\">\n                        <div class=\"key-label\">J</div>\n                    </div>\n                </div>\n            ",
    "response": "f",
    "trial_type": "html-keyboard-response",
    "trial_index": 86,
    "plugin_version": "2.1.0",
    "time_elapsed": 198205,
    "chosen_image": "C",
    "unchosen_image": "D",
    "chosen_side": "left",
    "reward": false,
    "reaction_time": 3765,
    "trial_number": 40
  },
  {
    "rt": null,
    "stimulus": "<div class=\"feedback no-reward\">No reward</div>",
    "response": null,
    "trial_type": "html-keyboard-response",
    "trial_index": 87,
    "plugin_version": "2.1.0",
    "time_elapsed": 199717
  },
  {
    "phase": "training",
    "block": 5,
    "left_image": "E",
    "actual_left_image": "imageC.png",
    "right_image": "F",
    "actual_right_image": "imageD.png",
    "pair": "E-F",
    "condition": "non-feature",
    "rt": 5039,
    "stimulus": "\n                <div class=\"phase-indicator\">TRAINING PHASE</div>\n                <div class=\"progress-info\">Choose an image: F = Left, J = Right</div>\n                <div class=\"image-pair-container\">\n                    <div class=\"image-choice\">\n                        <img src=\"non-feature/imageC.png\" alt=\"Image E\">\n                        <div class=\"key-label\">F</div>\n                    </div>\n                    <div class=\"image-choice\">\n                        <img src=\"non-feature/imageD.png\" alt=\"Image F\">\n                        <div class=\"key-label\">J</div>\n                    </div>\n                </div>\n            ",
    "response": "f",
    "trial_type": "html-keyboard-response",
    "trial_index": 88,
    "plugin_version": "2.1.0",
    "time_elapsed": 204758,
    "chosen_image": "E",
    "unchosen_image": "F",
    "chosen_side": "left",
    "reward": true,
    "reaction_time": 5039,
    "trial_number": 41
  },
  {
    "rt": null,
    "stimulus": "<div class=\"feedback reward\">REWARD! +0.3p</div>",
    "response": null,
    "trial_type": "html-keyboard-response",
    "trial_index": 89,
    "plugin_version": "2.1.0",
    "time_elapsed": 206272
  },
  {
    "phase": "training",
    "block": 5,
    "left_image": "A",
    "actual_left_image": "imageE.png",
    "right_image": "B",
    "actual_right_image": "imageB.png",
    "pair": "A-B",
    "condition": "non-feature",
    "rt": 1915,
    "stimulus": "\n                <div class=\"phase-indicator\">TRAINING PHASE</div>\n                <div class=\"progress-info\">Choose an image: F = Left, J = Right</div>\n                <div class=\"image-pair-container\">\n                    <div class=\"image-choice\">\n                        <img src=\"non-feature/imageE.png\" alt=\"Image A\">\n                        <div class=\"key-label\">F</div>\n                    </div>\n                    <div class=\"image-choice\">\n                        <img src=\"non-feature/imageB.png\" alt=\"Image B\">\n                        <div class=\"key-label\">J</div>\n                    </div>\n                </div>\n            ",
    "response": "f",
    "trial_type": "html-keyboard-response",
    "trial_index": 90,
    "plugin_version": "2.1.0",
    "time_elapsed": 208189,
    "chosen_image": "A",
    "unchosen_image": "B",
    "chosen_side": "left",
    "reward": false,
    "reaction_time": 1915,
    "trial_number": 42
  },
  {
    "rt": null,
    "stimulus": "<div class=\"feedback no-reward\">No reward</div>",
    "response": null,
    "trial_type": "html-keyboard-response",
    "trial_index": 91,
    "plugin_version": "2.1.0",
    "time_elapsed": 209701
  },
  {
    "phase": "training",
    "block": 5,
    "left_image": "E",
    "actual_left_image": "imageC.png",
    "right_image": "D",
    "actual_right_image": "imageF.png",
    "pair": "E-D",
    "condition": "non-feature",
    "rt": 2575,
    "stimulus": "\n                <div class=\"phase-indicator\">TRAINING PHASE</div>\n                <div class=\"progress-info\">Choose an image: F = Left, J = Right</div>\n                <div class=\"image-pair-container\">\n                    <div class=\"image-choice\">\n                        <img src=\"non-feature/imageC.png\" alt=\"Image E\">\n                        <div class=\"key-label\">F</div>\n                    </div>\n                    <div class=\"image-choice\">\n                        <img src=\"non-feature/imageF.png\" alt=\"Image D\">\n                        <div class=\"key-label\">J</div>\n                    </div>\n                </div>\n            ",
    "response": "j",
    "trial_type": "html-keyboard-response",
    "trial_index": 92,
    "plugin_version": "2.1.0",
    "time_elapsed": 212278,
    "chosen_image": "D",
    "unchosen_image": "E",
    "chosen_side": "right",
    "reward": true,
    "reaction_time": 2575,
    "trial_number": 43
  },
  {
    "rt": null,
    "stimulus": "<div class=\"feedback reward\">REWARD! +0.3p</div>",
    "response": null,
    "trial_type": "html-keyboard-response",
    "trial_index": 93,
    "plugin_version": "2.1.0",
    "time_elapsed": 213784
  },
  {
    "phase": "training",
    "block": 5,
    "left_image": "F",
    "actual_left_image": "imageD.png",
    "right_image": "E",
    "actual_right_image": "imageC.png",
    "pair": "F-E",
    "condition": "non-feature",
    "rt": 3156,
    "stimulus": "\n                <div class=\"phase-indicator\">TRAINING PHASE</div>\n                <div class=\"progress-info\">Choose an image: F = Left, J = Right</div>\n                <div class=\"image-pair-container\">\n                    <div class=\"image-choice\">\n                        <img src=\"non-feature/imageD.png\" alt=\"Image F\">\n                        <div class=\"key-label\">F</div>\n                    </div>\n                    <div class=\"image-choice\">\n                        <img src=\"non-feature/imageC.png\" alt=\"Image E\">\n                        <div class=\"key-label\">J</div>\n                    </div>\n                </div>\n            ",
    "response": "f",
    "trial_type": "html-keyboard-response",
    "trial_index": 94,
    "plugin_version": "2.1.0",
    "time_elapsed": 216942,
    "chosen_image": "F",
    "unchosen_image": "E",
    "chosen_side": "left",
    "reward": false,
    "reaction_time": 3156,
    "trial_number": 44
  },
  {
    "rt": null,
    "stimulus": "<div class=\"feedback no-reward\">No reward</div>",
    "response": null,
    "trial_type": "html-keyboard-response",
    "trial_index": 95,
    "plugin_version": "2.1.0",
    "time_elapsed": 218454
  },
  {
    "phase": "training",
    "block": 5,
    "left_image": "B",
    "actual_left_image": "imageB.png",
    "right_image": "C",
    "actual_right_image": "imageA.png",
    "pair": "B-C",
    "condition": "non-feature",
    "rt": 949,
    "stimulus": "\n                <div class=\"phase-indicator\">TRAINING PHASE</div>\n                <div class=\"progress-info\">Choose an image: F = Left, J = Right</div>\n                <div class=\"image-pair-container\">\n                    <div class=\"image-choice\">\n                        <img src=\"non-feature/imageB.png\" alt=\"Image B\">\n                        <div class=\"key-label\">F</div>\n                    </div>\n                    <div class=\"image-choice\">\n                        <img src=\"non-feature/imageA.png\" alt=\"Image C\">\n                        <div class=\"key-label\">J</div>\n                    </div>\n                </div>\n            ",
    "response": "j",
    "trial_type": "html-keyboard-response",
    "trial_index": 96,
    "plugin_version": "2.1.0",
    "time_elapsed": 219406,
    "chosen_image": "C",
    "unchosen_image": "B",
    "chosen_side": "right",
    "reward": false,
    "reaction_time": 949,
    "trial_number": 45
  },
  {
    "rt": null,
    "stimulus": "<div class=\"feedback no-reward\">No reward</div>",
    "response": null,
    "trial_type": "html-keyboard-response",
    "trial_index": 97,
    "plugin_version": "2.1.0",
    "time_elapsed": 220909
  },
  {
    "phase": "training",
    "block": 5,
    "left_image": "D",
    "actual_left_image": "imageF.png",
    "right_image": "C",
    "actual_right_image": "imageA.png",
    "pair": "D-C",
    "condition": "non-feature",
    "rt": 710,
    "stimulus": "\n                <div class=\"phase-indicator\">TRAINING PHASE</div>\n                <div class=\"progress-info\">Choose an image: F = Left, J = Right</div>\n                <div class=\"image-pair-container\">\n                    <div class=\"image-choice\">\n                        <img src=\"non-feature/imageF.png\" alt=\"Image D\">\n                        <div class=\"key-label\">F</div>\n                    </div>\n                    <div class=\"image-choice\">\n                        <img src=\"non-feature/imageA.png\" alt=\"Image C\">\n                        <div class=\"key-label\">J</div>\n                    </div>\n                </div>\n            ",
    "response": "j",
    "trial_type": "html-keyboard-response",
    "trial_index": 98,
    "plugin_version": "2.1.0",
    "time_elapsed": 221620,
    "chosen_image": "C",
    "unchosen_image": "D",
    "chosen_side": "right",
    "reward": true,
    "reaction_time": 710,
    "trial_number": 46
  },
  {
    "rt": null,
    "stimulus": "<div class=\"feedback reward\">REWARD! +0.3p</div>",
    "response": null,
    "trial_type": "html-keyboard-response",
    "trial_index": 99,
    "plugin_version": "2.1.0",
    "time_elapsed": 223131
  },
  {
    "phase": "training",
    "block": 5,
    "left_image": "C",
    "actual_left_image": "imageA.png",
    "right_image": "B",
    "actual_right_image": "imageB.png",
    "pair": "C-B",
    "condition": "non-feature",
    "rt": 960,
    "stimulus": "\n                <div class=\"phase-indicator\">TRAINING PHASE</div>\n                <div class=\"progress-info\">Choose an image: F = Left, J = Right</div>\n                <div class=\"image-pair-container\">\n                    <div class=\"image-choice\">\n                        <img src=\"non-feature/imageA.png\" alt=\"Image C\">\n                        <div class=\"key-label\">F</div>\n                    </div>\n                    <div class=\"image-choice\">\n                        <img src=\"non-feature/imageB.png\" alt=\"Image B\">\n                        <div class=\"key-label\">J</div>\n                    </div>\n                </div>\n            ",
    "response": "f",
    "trial_type": "html-keyboard-response",
    "trial_index": 100,
    "plugin_version": "2.1.0",
    "time_elapsed": 224093,
    "chosen_image": "C",
    "unchosen_image": "B",
    "chosen_side": "left",
    "reward": false,
    "reaction_time": 960,
    "trial_number": 47
  },
  {
    "rt": null,
    "stimulus": "<div class=\"feedback no-reward\">No reward</div>",
    "response": null,
    "trial_type": "html-keyboard-response",
    "trial_index": 101,
    "plugin_version": "2.1.0",
    "time_elapsed": 225609
  },
  {
    "phase": "training",
    "block": 5,
    "left_image": "D",
    "actual_left_image": "imageF.png",
    "right_image": "E",
    "actual_right_image": "imageC.png",
    "pair": "D-E",
    "condition": "non-feature",
    "rt": 1098,
    "stimulus": "\n                <div class=\"phase-indicator\">TRAINING PHASE</div>\n                <div class=\"progress-info\">Choose an image: F = Left, J = Right</div>\n                <div class=\"image-pair-container\">\n                    <div class=\"image-choice\">\n                        <img src=\"non-feature/imageF.png\" alt=\"Image D\">\n                        <div class=\"key-label\">F</div>\n                    </div>\n                    <div class=\"image-choice\">\n                        <img src=\"non-feature/imageC.png\" alt=\"Image E\">\n                        <div class=\"key-label\">J</div>\n                    </div>\n                </div>\n            ",
    "response": "f",
    "trial_type": "html-keyboard-response",
    "trial_index": 102,
    "plugin_version": "2.1.0",
    "time_elapsed": 226708,
    "chosen_image": "D",
    "unchosen_image": "E",
    "chosen_side": "left",
    "reward": true,
    "reaction_time": 1098,
    "trial_number": 48
  },
  {
    "rt": null,
    "stimulus": "<div class=\"feedback reward\">REWARD! +0.3p</div>",
    "response": null,
    "trial_type": "html-keyboard-response",
    "trial_index": 103,
    "plugin_version": "2.1.0",
    "time_elapsed": 228218
  },
  {
    "phase": "training",
    "block": 5,
    "left_image": "B",
    "actual_left_image": "imageB.png",
    "right_image": "A",
    "actual_right_image": "imageE.png",
    "pair": "B-A",
    "condition": "non-feature",
    "rt": 3338,
    "stimulus": "\n                <div class=\"phase-indicator\">TRAINING PHASE</div>\n                <div class=\"progress-info\">Choose an image: F = Left, J = Right</div>\n                <div class=\"image-pair-container\">\n                    <div class=\"image-choice\">\n                        <img src=\"non-feature/imageB.png\" alt=\"Image B\">\n                        <div class=\"key-label\">F</div>\n                    </div>\n                    <div class=\"image-choice\">\n                        <img src=\"non-feature/imageE.png\" alt=\"Image A\">\n                        <div class=\"key-label\">J</div>\n                    </div>\n                </div>\n            ",
    "response": "f",
    "trial_type": "html-keyboard-response",
    "trial_index": 104,
    "plugin_version": "2.1.0",
    "time_elapsed": 231558,
    "chosen_image": "B",
    "unchosen_image": "A",
    "chosen_side": "left",
    "reward": true,
    "reaction_time": 3338,
    "trial_number": 49
  },
  {
    "rt": null,
    "stimulus": "<div class=\"feedback reward\">REWARD! +0.3p</div>",
    "response": null,
    "trial_type": "html-keyboard-response",
    "trial_index": 105,
    "plugin_version": "2.1.0",
    "time_elapsed": 233065
  },
  {
    "phase": "training",
    "block": 6,
    "left_image": "A",
    "actual_left_image": "imageE.png",
    "right_image": "B",
    "actual_right_image": "imageB.png",
    "pair": "A-B",
    "condition": "non-feature",
    "rt": 1826,
    "stimulus": "\n                <div class=\"phase-indicator\">TRAINING PHASE</div>\n                <div class=\"progress-info\">Choose an image: F = Left, J = Right</div>\n                <div class=\"image-pair-container\">\n                    <div class=\"image-choice\">\n                        <img src=\"non-feature/imageE.png\" alt=\"Image A\">\n                        <div class=\"key-label\">F</div>\n                    </div>\n                    <div class=\"image-choice\">\n                        <img src=\"non-feature/imageB.png\" alt=\"Image B\">\n                        <div class=\"key-label\">J</div>\n                    </div>\n                </div>\n            ",
    "response": "j",
    "trial_type": "html-keyboard-response",
    "trial_index": 106,
    "plugin_version": "2.1.0",
    "time_elapsed": 234893,
    "chosen_image": "B",
    "unchosen_image": "A",
    "chosen_side": "right",
    "reward": true,
    "reaction_time": 1826,
    "trial_number": 50
  },
  {
    "rt": null,
    "stimulus": "<div class=\"feedback reward\">REWARD! +0.3p</div>",
    "response": null,
    "trial_type": "html-keyboard-response",
    "trial_index": 107,
    "plugin_version": "2.1.0",
    "time_elapsed": 236415
  },
  {
    "phase": "training",
    "block": 6,
    "left_image": "D",
    "actual_left_image": "imageF.png",
    "right_image": "C",
    "actual_right_image": "imageA.png",
    "pair": "D-C",
    "condition": "non-feature",
    "rt": 804,
    "stimulus": "\n                <div class=\"phase-indicator\">TRAINING PHASE</div>\n                <div class=\"progress-info\">Choose an image: F = Left, J = Right</div>\n                <div class=\"image-pair-container\">\n                    <div class=\"image-choice\">\n                        <img src=\"non-feature/imageF.png\" alt=\"Image D\">\n                        <div class=\"key-label\">F</div>\n                    </div>\n                    <div class=\"image-choice\">\n                        <img src=\"non-feature/imageA.png\" alt=\"Image C\">\n                        <div class=\"key-label\">J</div>\n                    </div>\n                </div>\n            ",
    "response": "j",
    "trial_type": "html-keyboard-response",
    "trial_index": 108,
    "plugin_version": "2.1.0",
    "time_elapsed": 237221,
    "chosen_image": "C",
    "unchosen_image": "D",
    "chosen_side": "right",
    "reward": true,
    "reaction_time": 804,
    "trial_number": 51
  },
  {
    "rt": null,
    "stimulus": "<div class=\"feedback reward\">REWARD! +0.3p</div>",
    "response": null,
    "trial_type": "html-keyboard-response",
    "trial_index": 109,
    "plugin_version": "2.1.0",
    "time_elapsed": 238723
  },
  {
    "phase": "training",
    "block": 6,
    "left_image": "D",
    "actual_left_image": "imageF.png",
    "right_image": "E",
    "actual_right_image": "imageC.png",
    "pair": "D-E",
    "condition": "non-feature",
    "rt": 1808,
    "stimulus": "\n                <div class=\"phase-indicator\">TRAINING PHASE</div>\n                <div class=\"progress-info\">Choose an image: F = Left, J = Right</div>\n                <div class=\"image-pair-container\">\n                    <div class=\"image-choice\">\n                        <img src=\"non-feature/imageF.png\" alt=\"Image D\">\n                        <div class=\"key-label\">F</div>\n                    </div>\n                    <div class=\"image-choice\">\n                        <img src=\"non-feature/imageC.png\" alt=\"Image E\">\n                        <div class=\"key-label\">J</div>\n                    </div>\n                </div>\n            ",
    "response": "f",
    "trial_type": "html-keyboard-response",
    "trial_index": 110,
    "plugin_version": "2.1.0",
    "time_elapsed": 240533,
    "chosen_image": "D",
    "unchosen_image": "E",
    "chosen_side": "left",
    "reward": false,
    "reaction_time": 1808,
    "trial_number": 52
  },
  {
    "rt": null,
    "stimulus": "<div class=\"feedback no-reward\">No reward</div>",
    "response": null,
    "trial_type": "html-keyboard-response",
    "trial_index": 111,
    "plugin_version": "2.1.0",
    "time_elapsed": 242051
  },
  {
    "phase": "training",
    "block": 6,
    "left_image": "E",
    "actual_left_image": "imageC.png",
    "right_image": "D",
    "actual_right_image": "imageF.png",
    "pair": "E-D",
    "condition": "non-feature",
    "rt": 945,
    "stimulus": "\n                <div class=\"phase-indicator\">TRAINING PHASE</div>\n                <div class=\"progress-info\">Choose an image: F = Left, J = Right</div>\n                <div class=\"image-pair-container\">\n                    <div class=\"image-choice\">\n                        <img src=\"non-feature/imageC.png\" alt=\"Image E\">\n                        <div class=\"key-label\">F</div>\n                    </div>\n                    <div class=\"image-choice\">\n                        <img src=\"non-feature/imageF.png\" alt=\"Image D\">\n                        <div class=\"key-label\">J</div>\n                    </div>\n                </div>\n            ",
    "response": "f",
    "trial_type": "html-keyboard-response",
    "trial_index": 112,
    "plugin_version": "2.1.0",
    "time_elapsed": 242998,
    "chosen_image": "E",
    "unchosen_image": "D",
    "chosen_side": "left",
    "reward": false,
    "reaction_time": 945,
    "trial_number": 53
  },
  {
    "rt": null,
    "stimulus": "<div class=\"feedback no-reward\">No reward</div>",
    "response": null,
    "trial_type": "html-keyboard-response",
    "trial_index": 113,
    "plugin_version": "2.1.0",
    "time_elapsed": 244506
  },
  {
    "phase": "training",
    "block": 6,
    "left_image": "B",
    "actual_left_image": "imageB.png",
    "right_image": "C",
    "actual_right_image": "imageA.png",
    "pair": "B-C",
    "condition": "non-feature",
    "rt": 1730,
    "stimulus": "\n                <div class=\"phase-indicator\">TRAINING PHASE</div>\n                <div class=\"progress-info\">Choose an image: F = Left, J = Right</div>\n                <div class=\"image-pair-container\">\n                    <div class=\"image-choice\">\n                        <img src=\"non-feature/imageB.png\" alt=\"Image B\">\n                        <div class=\"key-label\">F</div>\n                    </div>\n                    <div class=\"image-choice\">\n                        <img src=\"non-feature/imageA.png\" alt=\"Image C\">\n                        <div class=\"key-label\">J</div>\n                    </div>\n                </div>\n            ",
    "response": "f",
    "trial_type": "html-keyboard-response",
    "trial_index": 114,
    "plugin_version": "2.1.0",
    "time_elapsed": 246237,
    "chosen_image": "B",
    "unchosen_image": "C",
    "chosen_side": "left",
    "reward": true,
    "reaction_time": 1730,
    "trial_number": 54
  },
  {
    "rt": null,
    "stimulus": "<div class=\"feedback reward\">REWARD! +0.3p</div>",
    "response": null,
    "trial_type": "html-keyboard-response",
    "trial_index": 115,
    "plugin_version": "2.1.0",
    "time_elapsed": 247745
  },
  {
    "phase": "training",
    "block": 6,
    "left_image": "B",
    "actual_left_image": "imageB.png",
    "right_image": "A",
    "actual_right_image": "imageE.png",
    "pair": "B-A",
    "condition": "non-feature",
    "rt": 1490,
    "stimulus": "\n                <div class=\"phase-indicator\">TRAINING PHASE</div>\n                <div class=\"progress-info\">Choose an image: F = Left, J = Right</div>\n                <div class=\"image-pair-container\">\n                    <div class=\"image-choice\">\n                        <img src=\"non-feature/imageB.png\" alt=\"Image B\">\n                        <div class=\"key-label\">F</div>\n                    </div>\n                    <div class=\"image-choice\">\n                        <img src=\"non-feature/imageE.png\" alt=\"Image A\">\n                        <div class=\"key-label\">J</div>\n                    </div>\n                </div>\n            ",
    "response": "j",
    "trial_type": "html-keyboard-response",
    "trial_index": 116,
    "plugin_version": "2.1.0",
    "time_elapsed": 249237,
    "chosen_image": "A",
    "unchosen_image": "B",
    "chosen_side": "right",
    "reward": true,
    "reaction_time": 1490,
    "trial_number": 55
  },
  {
    "rt": null,
    "stimulus": "<div class=\"feedback reward\">REWARD! +0.3p</div>",
    "response": null,
    "trial_type": "html-keyboard-response",
    "trial_index": 117,
    "plugin_version": "2.1.0",
    "time_elapsed": 250740
  },
  {
    "phase": "training",
    "block": 6,
    "left_image": "F",
    "actual_left_image": "imageD.png",
    "right_image": "E",
    "actual_right_image": "imageC.png",
    "pair": "F-E",
    "condition": "non-feature",
    "rt": 1159,
    "stimulus": "\n                <div class=\"phase-indicator\">TRAINING PHASE</div>\n                <div class=\"progress-info\">Choose an image: F = Left, J = Right</div>\n                <div class=\"image-pair-container\">\n                    <div class=\"image-choice\">\n                        <img src=\"non-feature/imageD.png\" alt=\"Image F\">\n                        <div class=\"key-label\">F</div>\n                    </div>\n                    <div class=\"image-choice\">\n                        <img src=\"non-feature/imageC.png\" alt=\"Image E\">\n                        <div class=\"key-label\">J</div>\n                    </div>\n                </div>\n            ",
    "response": "f",
    "trial_type": "html-keyboard-response",
    "trial_index": 118,
    "plugin_version": "2.1.0",
    "time_elapsed": 251901,
    "chosen_image": "F",
    "unchosen_image": "E",
    "chosen_side": "left",
    "reward": false,
    "reaction_time": 1159,
    "trial_number": 56
  },
  {
    "rt": null,
    "stimulus": "<div class=\"feedback no-reward\">No reward</div>",
    "response": null,
    "trial_type": "html-keyboard-response",
    "trial_index": 119,
    "plugin_version": "2.1.0",
    "time_elapsed": 253412
  },
  {
    "phase": "training",
    "block": 6,
    "left_image": "E",
    "actual_left_image": "imageC.png",
    "right_image": "F",
    "actual_right_image": "imageD.png",
    "pair": "E-F",
    "condition": "non-feature",
    "rt": 1192,
    "stimulus": "\n                <div class=\"phase-indicator\">TRAINING PHASE</div>\n                <div class=\"progress-info\">Choose an image: F = Left, J = Right</div>\n                <div class=\"image-pair-container\">\n                    <div class=\"image-choice\">\n                        <img src=\"non-feature/imageC.png\" alt=\"Image E\">\n                        <div class=\"key-label\">F</div>\n                    </div>\n                    <div class=\"image-choice\">\n                        <img src=\"non-feature/imageD.png\" alt=\"Image F\">\n                        <div class=\"key-label\">J</div>\n                    </div>\n                </div>\n            ",
    "response": "f",
    "trial_type": "html-keyboard-response",
    "trial_index": 120,
    "plugin_version": "2.1.0",
    "time_elapsed": 254606,
    "chosen_image": "E",
    "unchosen_image": "F",
    "chosen_side": "left",
    "reward": true,
    "reaction_time": 1192,
    "trial_number": 57
  },
  {
    "rt": null,
    "stimulus": "<div class=\"feedback reward\">REWARD! +0.3p</div>",
    "response": null,
    "trial_type": "html-keyboard-response",
    "trial_index": 121,
    "plugin_version": "2.1.0",
    "time_elapsed": 256122
  },
  {
    "phase": "training",
    "block": 6,
    "left_image": "C",
    "actual_left_image": "imageA.png",
    "right_image": "B",
    "actual_right_image": "imageB.png",
    "pair": "C-B",
    "condition": "non-feature",
    "rt": 1282,
    "stimulus": "\n                <div class=\"phase-indicator\">TRAINING PHASE</div>\n                <div class=\"progress-info\">Choose an image: F = Left, J = Right</div>\n                <div class=\"image-pair-container\">\n                    <div class=\"image-choice\">\n                        <img src=\"non-feature/imageA.png\" alt=\"Image C\">\n                        <div class=\"key-label\">F</div>\n                    </div>\n                    <div class=\"image-choice\">\n                        <img src=\"non-feature/imageB.png\" alt=\"Image B\">\n                        <div class=\"key-label\">J</div>\n                    </div>\n                </div>\n            ",
    "response": "f",
    "trial_type": "html-keyboard-response",
    "trial_index": 122,
    "plugin_version": "2.1.0",
    "time_elapsed": 257405,
    "chosen_image": "C",
    "unchosen_image": "B",
    "chosen_side": "left",
    "reward": false,
    "reaction_time": 1282,
    "trial_number": 58
  },
  {
    "rt": null,
    "stimulus": "<div class=\"feedback no-reward\">No reward</div>",
    "response": null,
    "trial_type": "html-keyboard-response",
    "trial_index": 123,
    "plugin_version": "2.1.0",
    "time_elapsed": 258915
  },
  {
    "phase": "training",
    "block": 6,
    "left_image": "C",
    "actual_left_image": "imageA.png",
    "right_image": "D",
    "actual_right_image": "imageF.png",
    "pair": "C-D",
    "condition": "non-feature",
    "rt": 1176,
    "stimulus": "\n                <div class=\"phase-indicator\">TRAINING PHASE</div>\n                <div class=\"progress-info\">Choose an image: F = Left, J = Right</div>\n                <div class=\"image-pair-container\">\n                    <div class=\"image-choice\">\n                        <img src=\"non-feature/imageA.png\" alt=\"Image C\">\n                        <div class=\"key-label\">F</div>\n                    </div>\n                    <div class=\"image-choice\">\n                        <img src=\"non-feature/imageF.png\" alt=\"Image D\">\n                        <div class=\"key-label\">J</div>\n                    </div>\n                </div>\n            ",
    "response": "f",
    "trial_type": "html-keyboard-response",
    "trial_index": 124,
    "plugin_version": "2.1.0",
    "time_elapsed": 260093,
    "chosen_image": "C",
    "unchosen_image": "D",
    "chosen_side": "left",
    "reward": true,
    "reaction_time": 1176,
    "trial_number": 59
  },
  {
    "rt": null,
    "stimulus": "<div class=\"feedback reward\">REWARD! +0.3p</div>",
    "response": null,
    "trial_type": "html-keyboard-response",
    "trial_index": 125,
    "plugin_version": "2.1.0",
    "time_elapsed": 261609
  },
  {
    "phase": "training",
    "block": 7,
    "left_image": "B",
    "actual_left_image": "imageB.png",
    "right_image": "A",
    "actual_right_image": "imageE.png",
    "pair": "B-A",
    "condition": "non-feature",
    "rt": 1282,
    "stimulus": "\n                <div class=\"phase-indicator\">TRAINING PHASE</div>\n                <div class=\"progress-info\">Choose an image: F = Left, J = Right</div>\n                <div class=\"image-pair-container\">\n                    <div class=\"image-choice\">\n                        <img src=\"non-feature/imageB.png\" alt=\"Image B\">\n                        <div class=\"key-label\">F</div>\n                    </div>\n                    <div class=\"image-choice\">\n                        <img src=\"non-feature/imageE.png\" alt=\"Image A\">\n                        <div class=\"key-label\">J</div>\n                    </div>\n                </div>\n            ",
    "response": "j",
    "trial_type": "html-keyboard-response",
    "trial_index": 126,
    "plugin_version": "2.1.0",
    "time_elapsed": 262893,
    "chosen_image": "A",
    "unchosen_image": "B",
    "chosen_side": "right",
    "reward": false,
    "reaction_time": 1282,
    "trial_number": 60
  },
  {
    "rt": null,
    "stimulus": "<div class=\"feedback no-reward\">No reward</div>",
    "response": null,
    "trial_type": "html-keyboard-response",
    "trial_index": 127,
    "plugin_version": "2.1.0",
    "time_elapsed": 264403
  },
  {
    "phase": "training",
    "block": 7,
    "left_image": "F",
    "actual_left_image": "imageD.png",
    "right_image": "E",
    "actual_right_image": "imageC.png",
    "pair": "F-E",
    "condition": "non-feature",
    "rt": 1424,
    "stimulus": "\n                <div class=\"phase-indicator\">TRAINING PHASE</div>\n                <div class=\"progress-info\">Choose an image: F = Left, J = Right</div>\n                <div class=\"image-pair-container\">\n                    <div class=\"image-choice\">\n                        <img src=\"non-feature/imageD.png\" alt=\"Image F\">\n                        <div class=\"key-label\">F</div>\n                    </div>\n                    <div class=\"image-choice\">\n                        <img src=\"non-feature/imageC.png\" alt=\"Image E\">\n                        <div class=\"key-label\">J</div>\n                    </div>\n                </div>\n            ",
    "response": "j",
    "trial_type": "html-keyboard-response",
    "trial_index": 128,
    "plugin_version": "2.1.0",
    "time_elapsed": 265830,
    "chosen_image": "E",
    "unchosen_image": "F",
    "chosen_side": "right",
    "reward": false,
    "reaction_time": 1424,
    "trial_number": 61
  },
  {
    "rt": null,
    "stimulus": "<div class=\"feedback no-reward\">No reward</div>",
    "response": null,
    "trial_type": "html-keyboard-response",
    "trial_index": 129,
    "plugin_version": "2.1.0",
    "time_elapsed": 267345
  },
  {
    "phase": "training",
    "block": 7,
    "left_image": "C",
    "actual_left_image": "imageA.png",
    "right_image": "B",
    "actual_right_image": "imageB.png",
    "pair": "C-B",
    "condition": "non-feature",
    "rt": 1171,
    "stimulus": "\n                <div class=\"phase-indicator\">TRAINING PHASE</div>\n                <div class=\"progress-info\">Choose an image: F = Left, J = Right</div>\n                <div class=\"image-pair-container\">\n                    <div class=\"image-choice\">\n                        <img src=\"non-feature/imageA.png\" alt=\"Image C\">\n                        <div class=\"key-label\">F</div>\n                    </div>\n                    <div class=\"image-choice\">\n                        <img src=\"non-feature/imageB.png\" alt=\"Image B\">\n                        <div class=\"key-label\">J</div>\n                    </div>\n                </div>\n            ",
    "response": "j",
    "trial_type": "html-keyboard-response",
    "trial_index": 130,
    "plugin_version": "2.1.0",
    "time_elapsed": 268517,
    "chosen_image": "B",
    "unchosen_image": "C",
    "chosen_side": "right",
    "reward": true,
    "reaction_time": 1171,
    "trial_number": 62
  },
  {
    "rt": null,
    "stimulus": "<div class=\"feedback reward\">REWARD! +0.3p</div>",
    "response": null,
    "trial_type": "html-keyboard-response",
    "trial_index": 131,
    "plugin_version": "2.1.0",
    "time_elapsed": 270023
  },
  {
    "phase": "training",
    "block": 7,
    "left_image": "E",
    "actual_left_image": "imageC.png",
    "right_image": "D",
    "actual_right_image": "imageF.png",
    "pair": "E-D",
    "condition": "non-feature",
    "rt": 1764,
    "stimulus": "\n                <div class=\"phase-indicator\">TRAINING PHASE</div>\n                <div class=\"progress-info\">Choose an image: F = Left, J = Right</div>\n                <div class=\"image-pair-container\">\n                    <div class=\"image-choice\">\n                        <img src=\"non-feature/imageC.png\" alt=\"Image E\">\n                        <div class=\"key-label\">F</div>\n                    </div>\n                    <div class=\"image-choice\">\n                        <img src=\"non-feature/imageF.png\" alt=\"Image D\">\n                        <div class=\"key-label\">J</div>\n                    </div>\n                </div>\n            ",
    "response": "j",
    "trial_type": "html-keyboard-response",
    "trial_index": 132,
    "plugin_version": "2.1.0",
    "time_elapsed": 271789,
    "chosen_image": "D",
    "unchosen_image": "E",
    "chosen_side": "right",
    "reward": true,
    "reaction_time": 1764,
    "trial_number": 63
  },
  {
    "rt": null,
    "stimulus": "<div class=\"feedback reward\">REWARD! +0.3p</div>",
    "response": null,
    "trial_type": "html-keyboard-response",
    "trial_index": 133,
    "plugin_version": "2.1.0",
    "time_elapsed": 273291
  },
  {
    "phase": "training",
    "block": 7,
    "left_image": "D",
    "actual_left_image": "imageF.png",
    "right_image": "E",
    "actual_right_image": "imageC.png",
    "pair": "D-E",
    "condition": "non-feature",
    "rt": 744,
    "stimulus": "\n                <div class=\"phase-indicator\">TRAINING PHASE</div>\n                <div class=\"progress-info\">Choose an image: F = Left, J = Right</div>\n                <div class=\"image-pair-container\">\n                    <div class=\"image-choice\">\n                        <img src=\"non-feature/imageF.png\" alt=\"Image D\">\n                        <div class=\"key-label\">F</div>\n                    </div>\n                    <div class=\"image-choice\">\n                        <img src=\"non-feature/imageC.png\" alt=\"Image E\">\n                        <div class=\"key-label\">J</div>\n                    </div>\n                </div>\n            ",
    "response": "f",
    "trial_type": "html-keyboard-response",
    "trial_index": 134,
    "plugin_version": "2.1.0",
    "time_elapsed": 274037,
    "chosen_image": "D",
    "unchosen_image": "E",
    "chosen_side": "left",
    "reward": false,
    "reaction_time": 744,
    "trial_number": 64
  },
  {
    "rt": null,
    "stimulus": "<div class=\"feedback no-reward\">No reward</div>",
    "response": null,
    "trial_type": "html-keyboard-response",
    "trial_index": 135,
    "plugin_version": "2.1.0",
    "time_elapsed": 275548
  },
  {
    "phase": "training",
    "block": 7,
    "left_image": "A",
    "actual_left_image": "imageE.png",
